onset	duration	trial_type	img_gender	word_gender	response_time	response_hand	response_accuracy
1.0235	0.5	incongruent	male	female	1.9894	left	correct
7.54	0.5	incongruent	male	female	1.6798	right	incorrect
12.5566	0.5	congruent	male	male	1.2281	right	incorrect
18.5731	0.5	congruent	male	male	0.7614	right	incorrect
23.0897	0.5	incongruent	female	male	0.8007	left	incorrect
29.6062	0.5	incongruent	male	female	0.857	right	incorrect
34.1228	0.5	incongruent	female	male	0.8983	left	incorrect
39.1394	0.5	incongruent	female	male	1.1326	left	incorrect
43.65600000000001	0.5	incongruent	female	male	0.8399	left	incorrect
48.1725	0.5	incongruent	male	female	0.7872	right	incorrect
53.1891	0.5	congruent	male	male	0.8095	right	incorrect
58.2057	0.5	congruent	male	male	0.8448	right	incorrect
62.7223	0.5	congruent	female	female	0.8531	left	incorrect
67.2388	0.5	congruent	male	male	0.8494	right	incorrect
72.2554	0.5	incongruent	male	female	2.2047	right	incorrect
76.77199999999998	0.5	congruent	male	male	0.8190000000000001	right	incorrect
82.2885	0.5	incongruent	female	male	1.3423	left	incorrect
86.8051	0.5	incongruent	female	male	0.9186	left	incorrect
91.3217	0.5	congruent	female	female	0.8289	left	incorrect
95.8383	0.5	incongruent	male	female	0.9782	right	incorrect
100.3548	0.5	incongruent	male	female	1.5856	right	incorrect
105.3714	0.5	congruent	male	male	0.8748	right	incorrect
110.888	0.5	congruent	male	male	1.4201	right	incorrect
115.4045	0.5	congruent	male	male	0.7565	right	incorrect
120.4211	0.5	incongruent	female	male	0.7318	left	incorrect
124.9377	0.5	incongruent	female	male	1.361	left	incorrect
130.4542	0.5	incongruent	female	male	0.7764	left	incorrect
134.9708	0.5	incongruent	female	male	0.8777	left	incorrect
139.4874	0.5	incongruent	female	male	0.67	left	incorrect
144.504	0.5	incongruent	male	female	0.7262	right	incorrect
149.0205	0.5	congruent	male	male	1.3796	right	incorrect
155.5371	0.5	incongruent	female	male	0.8948	left	incorrect
160.0536	0.5	incongruent	male	female	0.8242	right	incorrect
164.5702	0.5	congruent	female	female	1.4664	left	incorrect
170.5868	0.5	incongruent	male	female	1.3037	right	incorrect
175.1033	0.5	congruent	female	female	0.8411	left	incorrect
180.6199	0.5	incongruent	male	female	0.8154	right	incorrect
186.1365	0.5	incongruent	male	female	0.7426	right	incorrect
191.653	0.5	congruent	male	male	0.951	right	incorrect
196.1696	0.5	incongruent	male	female	0.9353	right	incorrect
201.1862	0.5	congruent	female	female	1.2425	left	incorrect
205.7027	0.5	congruent	male	male	0.7539	right	incorrect
210.2193	0.5	congruent	female	female	0.9292	left	incorrect
214.7359	0.5	congruent	female	female	0.7225	left	incorrect
219.7525	0.5	congruent	female	female	0.8067	left	incorrect
224.769	0.5	incongruent	male	female	0.7601	right	incorrect
229.2856	0.5	incongruent	male	female	0.8734	right	incorrect
234.8022	0.5	congruent	male	male	0.8576	right	incorrect
240.8187	0.5	congruent	female	female	0.818	left	incorrect
246.8352	0.5	congruent	male	male	0.8553	right	incorrect
251.3518	0.5	congruent	female	female	0.7316	left	incorrect
255.8684	0.5	congruent	male	male	0.8129	right	incorrect
260.385	0.5	incongruent	male	female	0.9462	right	incorrect
265.4015	0.5	congruent	female	female	0.6085	left	incorrect
269.9181	0.5	incongruent	female	male	1.3738	left	incorrect
275.9347	0.5	congruent	female	female	0.9161	left	incorrect
280.4512	0.5	congruent	male	male	0.8295	right	incorrect
285.9678	0.5	incongruent	female	male	1.5377	left	incorrect
290.4844	0.5	congruent	male	male	0.969	right	incorrect
295.001	0.5	congruent	male	male	0.9533	right	incorrect
301.5175	0.5	congruent	female	female	0.8546	left	incorrect
306.5341	0.5	congruent	male	male	0.7639	right	incorrect
312.0506	0.5	incongruent	female	male	1.1712	left	incorrect
317.0672	0.5	congruent	male	male	0.7905	right	incorrect
323.5837	0.5	incongruent	female	male	0.6548	left	incorrect
328.1003	0.5	congruent	female	female	0.8331	left	incorrect
333.1169	0.5	congruent	male	male	2.2523	right	incorrect
338.1334	0.5	incongruent	female	male	0.9387	left	incorrect
342.65	0.5	incongruent	male	female	0.723	right	incorrect
348.1666	0.5	incongruent	female	male	0.9812	left	incorrect
352.6831	0.5	incongruent	female	male	0.6577	left	incorrect
357.6997	0.5	incongruent	male	female	0.9579	right	incorrect
362.2163	0.5	congruent	female	female	1.0252	left	incorrect
366.7329	0.5	incongruent	female	male	0.7495	left	incorrect
371.2494	0.5	congruent	male	male	0.7868	right	incorrect
376.266	0.5	incongruent	male	female	1.1951	right	incorrect
380.7826	0.5	congruent	male	male	0.9524	right	incorrect
385.2991	0.5	congruent	female	female	0.5898	left	incorrect
389.8157	0.5	incongruent	female	male	0.687	left	incorrect
396.3323	0.5	incongruent	female	male	0.9473	left	incorrect
401.3488	0.5	congruent	male	male	1.0076	right	incorrect
406.8654	0.5	incongruent	male	female	2.8809	right	incorrect
411.8819	0.5	congruent	female	female	0.8163	left	incorrect
416.8985	0.5	incongruent	male	female	0.9625	right	incorrect
421.4151	0.5	congruent	female	female	0.7468	left	incorrect
427.4316	0.5	congruent	female	female	0.7882	left	incorrect
431.9482	0.5	congruent	female	female	0.8904	left	incorrect
436.9648	0.5	congruent	female	female	0.8037	left	incorrect
441.4814	0.5	congruent	female	female	0.995	left	incorrect
445.9979	0.5	congruent	female	female	1.0954	left	incorrect
451.5145	0.5	incongruent	female	male	1.0386	left	incorrect
456.0311	0.5	incongruent	male	female	0.8809	right	incorrect
460.5476	0.5	incongruent	male	female	1.1133	right	incorrect
465.0642	0.5	congruent	female	female	0.9506	left	incorrect
470.0808	0.5	incongruent	female	male	1.1968	left	incorrect
474.5974	0.5	incongruent	male	female	0.7411	right	incorrect
